'hscan013.bt9' 'Mar 28 2011 22:23' 'Q'      42000.    1  'NEUT'   31  'RAW'
  Filename         Date            Scan       Mon    Prf  Base   #pts  Type
hscan  40-PG-10-S-40 -PG-200 triple axis room temp
  40  48  40  99      30 30 30         0  1  1   0.000     1  0  0
 Collimation        Mosaic              Xstal Orientation
     3.909     3.909     3.909    90.000    90.000    90.000
Lattice Parameters in real space
     0.000     0.000       14.700        3.354   3.354      0.00000   0.00000
    E center  Delta E      EA fixed      M-dsp   A-dsp     Tmp strt   Tmp inc
  0.493   0.493   0.485    0.0020  0.0020 -0.0020      0.0000
   Q (hkl scan center)        Delta Q (hkl)            Hfield
    Q(x)    Q(y)    Q(z)     E       min       Counts
  0.4630  0.4630  0.5150   0.0000    0.43           5
  0.4650  0.4650  0.5130   0.0000    0.43           4
  0.4670  0.4670  0.5110   0.0000    0.43           2
  0.4690  0.4690  0.5090   0.0000    0.43          11
  0.4710  0.4710  0.5070   0.0000    0.42           5
  0.4730  0.4730  0.5050   0.0000    0.43          18
  0.4750  0.4750  0.5030   0.0000    0.42          13
  0.4770  0.4770  0.5010   0.0000    0.43          17
  0.4790  0.4790  0.4990   0.0000    0.42          22
  0.4810  0.4810  0.4970   0.0000    0.42          14
  0.4830  0.4830  0.4950   0.0000    0.43          21
  0.4850  0.4850  0.4930   0.0000    0.42          24
  0.4870  0.4870  0.4910   0.0000    0.43          24
  0.4890  0.4890  0.4890   0.0000    0.43          21
  0.4910  0.4910  0.4870   0.0000    0.43          19
  0.4930  0.4930  0.4850   0.0000    0.43          10
  0.4950  0.4950  0.4830   0.0000    0.43          14
  0.4970  0.4970  0.4810   0.0000    0.42           6
  0.4990  0.4990  0.4790   0.0000    0.43           7
  0.5010  0.5010  0.4770   0.0000    0.43          11
  0.5030  0.5030  0.4750   0.0000    0.43          10
  0.5050  0.5050  0.4730   0.0000    0.43          11
  0.5070  0.5070  0.4710   0.0000    0.43           3
  0.5090  0.5090  0.4690   0.0000    0.43           8
  0.5110  0.5110  0.4670   0.0000    0.43           7
  0.5130  0.5130  0.4650   0.0000    0.43          12
  0.5150  0.5150  0.4630   0.0000    0.43           7
  0.5170  0.5170  0.4610   0.0000    0.43           7
  0.5190  0.5190  0.4590   0.0000    0.43          10
  0.5210  0.5210  0.4570   0.0000    0.43           4
  0.5230  0.5230  0.4550   0.0000    0.43           5
